Folder: CME_502_Spring_2025

File: pla.raw
"Test Type","Manual"
"Method Name:","C:\INSTRON\user\template\Xianghao.mtM"
"Name:","80PMMA20PBAT"
"Operator ID:","kai"
"Company:",""
"Lab name:",""
"Test date:","9/9/24"
"Temperature:",""
"Humidity:",""
"Note 1:",""
"Note 2:",""
"Note 3:",""
"Geometry:","Rectangular"
"Specimen",1
"Width:",5.842000,"mm"
"Thickness:",1.524000,"mm"
"Length:",38.7858,"mm"
"Diameter:",1.000000,"mm"
"Inner diameter:",0.500000,"mm"
"Outer diameter:",1.000000,"mm"
"Wall thickness:",0.500000,"mm"
"Area:",8.903208,"mm*mm"
"Linear density:",1.000000,"den"
"Sled weight:",9.806650,"N"
"Loading span:",0.000000,"mm"
"Support span:",1.000000,"mm"
"Span ratio:","2"
"Fixture type:","3-point"
"Comment:",""
"Included"
"Time sec","Extension mm","Load N","Stress MPa","Cycle Count ","Total Cycle Count ","Strain [Exten.] %","True strain %","Tenacity gf/tex","True stress Pa"
0,0.0003125,-0.3583382,-0.04024822,0,0,0.0008057071,0.0008057039,-328.863,-40248.54
0.508,0.0159375,3.454924,0.3880538,0,0,0.04109106,0.04108262,3170.738,388213.3
0.88,0.02890625,7.225347,0.8115442,0,0,0.07452791,0.07450015,6631.023,812149
1.258,0.04234375,11.02263,1.238052,0,0,0.1091733,0.1091138,10115.96,1239403
1.678,0.05609374,14.81599,1.664118,0,0,0.1446244,0.14452,13597.29,1666524
2.072,0.06937499,18.58166,2.087075,0,0,0.178867,0.1787072,17053.22,2090808
2.474,0.08265624,22.36849,2.512408,0,0,0.2131095,0.2128828,20528.56,2517762
2.86,0.09593749,26.13272,2.935202,0,0,0.2473521,0.2470467,23983.16,2942463
3.264,0.1089062,29.9257,3.361227,0,0,0.2807889,0.2803955,27464.15,3370664
3.636,0.12125,33.71738,3.787105,0,0,0.3126144,0.3121268,30943.95,3798944
3.988,0.13375,37.51083,4.213182,0,0,0.3448426,0.3442494,34425.37,4227711
4.424,0.1473437,41.30492,4.63933,0,0,0.3798909,0.3791711,37907.37,4656954
4.77,0.1596875,45.07178,5.06242,0,0,0.4117163,0.4108711,41364.38,5083263
5.18,0.1728125,48.84415,5.48613,0,0,0.445556,0.4445664,44826.46,5510574
5.554,0.1859375,52.63476,5.911887,0,0,0.4793957,0.4782503,48305.27,5940228
5.966,0.1989062,56.42224,6.337293,0,0,0.5128326,0.5115221,51781.2,6369793
6.33,0.2117187,60.22591,6.764518,0,0,0.5458666,0.5443821,55272,6801443
6.738,0.225,64.01055,7.189606,0,0,0.5801091,0.578433,58745.34,7231313
7.122,0.2379687,67.78801,7.613886,0,0,0.613546,0.6116715,62212.08,7660601
7.506,0.2504687,71.56593,8.038218,0,0,0.6457742,0.643698,65679.24,8090127
7.91,0.2637499,75.34035,8.462157,0,0,0.6800168,0.6777151,69143.2,8519701
8.29,0.2765624,79.12446,8.887185,0,0,0.7130507,0.7105206,72616.05,8950555
8.676,0.2895312,82.8995,9.311193,0,0,0.7464876,0.7437152,76080.56,9380701
9.04,0.3023437,86.69705,9.737732,0,0,0.7795216,0.776499,79565.75,9813639
9.48,0.3157812,90.48086,10.16273,0,0,0.814167,0.8108706,83038.32,1.024547e+007
9.834,0.3287499,94.28012,10.58946,0,0,0.8476039,0.8440319,86525.07,1.067921e+007
10.258,0.341875,98.05867,11.01386,0,0,0.8814436,0.8775816,89992.81,1.111094e+007
10.634,0.3551562,101.8301,11.43746,0,0,0.9156861,0.9115192,93454.04,1.154219e+007
11.046,0.3682812,105.6087,11.86187,0,0,0.9495259,0.9450462,96921.81,1.19745e+007
11.432,0.3814062,109.3773,12.28516,0,0,0.9833655,0.978562,100380.5,1.240597e+007
11.84,0.395,113.1432,12.70814,0,0,1.018414,1.013263,103836.6,1.283756e+007
12.23,0.4082812,116.9127,13.13152,0,0,1.052656,1.047155,107296,1.326975e+007
12.634,0.4214062,120.6777,13.55441,0,0,1.086496,1.080636,110751.3,1.370168e+007
13.05,0.4353125,124.4568,13.97887,0,0,1.12235,1.116098,114219.5,1.413576e+007
13.444,0.4482812,128.229,14.40256,0,0,1.155787,1.149159,117681.5,1.456902e+007
13.844,0.4617187,132.0028,14.82643,0,0,1.190432,1.183402,121144.8,1.500293e+007
14.246,0.4754687,135.7891,15.2517,0,0,1.225883,1.21843,124619.7,1.543867e+007
14.668,0.4889062,139.5548,15.67467,0,0,1.260529,1.25265,128075.7,1.587225e+007
15.03,0.5020311,143.3489,16.10081,0,0,1.294368,1.286063,131557.7,1.630922e+007
15.466,0.5159374,147.1206,16.52444,0,0,1.330222,1.321453,135019.1,1.674425e+007
15.846,0.5292186,150.9096,16.95002,0,0,1.364465,1.35524,138496.4,1.71813e+007
16.284,0.5428124,154.6865,17.37424,0,0,1.399513,1.38981,141962.7,1.76174e+007
16.662,0.5565624,158.4651,17.79865,0,0,1.434964,1.424766,145430.5,1.805405e+007
17.106,0.5701561,162.2326,18.22182,0,0,1.470013,1.459313,148888.1,1.848968e+007
17.468,0.5834374,166.0172,18.64689,0,0,1.504255,1.493053,152361.3,1.892739e+007
17.926,0.5976561,169.7915,19.07082,0,0,1.540915,1.529163,155825.2,1.936469e+007
18.324,0.6112499,173.5688,19.49508,0,0,1.575963,1.563674,159291.8,1.980232e+007
18.754,0.6249999,177.3572,19.9206,0,0,1.611414,1.598569,162768.7,2.02416e+007
19.118,0.6387499,181.1354,20.34496,0,0,1.646865,1.633452,166236,2.068001e+007
19.592,0.6529687,184.9058,20.76844,0,0,1.683525,1.669511,169696.3,2.111809e+007
19.98,0.6665624,188.6867,21.19311,0,0,1.718573,1.703973,173166.2,2.155733e+007
20.418,0.6809374,192.4452,21.61527,0,0,1.755636,1.740403,176615.6,2.199475e+007
20.824,0.6946874,196.2093,22.03804,0,0,1.791087,1.775236,180070,2.243277e+007
21.26,0.7087499,199.9708,22.46053,0,0,1.827344,1.810848,183522.1,2.287096e+007
21.666,0.7231249,203.7679,22.88702,0,0,1.864406,1.847239,187006.9,2.331373e+007
22.126,0.7374999,207.5579,23.31271,0,0,1.901469,1.883617,190485.1,2.375599e+007
22.516,0.7515624,211.3459,23.73817,0,0,1.937726,1.919191,193961.6,2.419816e+007
22.98,0.7660937,215.1348,24.16374,0,0,1.975191,1.955937,197438.8,2.464102e+007
23.378,0.7801561,218.9163,24.58847,0,0,2.011448,1.991485,200909.2,2.508305e+007
23.826,0.7942186,222.6899,25.01233,0,0,2.047705,2.027021,204372.5,2.55245e+007
24.23,0.8084374,226.4723,25.43716,0,0,2.084364,2.062939,207843.8,2.596736e+007
24.686,0.8228124,230.2493,25.86139,0,0,2.121427,2.099238,211310.1,2.641002e+007
25.09,0.8370312,234.0184,26.28473,0,0,2.158087,2.13513,214769.2,2.685198e+007
25.554,0.8518749,237.7897,26.70831,0,0,2.196358,2.172585,218230.2,2.729492e+007
25.956,0.8659374,241.5775,27.13376,0,0,2.232615,2.208056,221706.4,2.773955e+007
26.422,0.8806249,245.3416,27.55654,0,0,2.270483,2.245091,225161,2.818221e+007
26.826,0.8951561,249.1331,27.9824,0,0,2.307948,2.281718,228640.6,2.862822e+007
27.292,0.9098437,252.9109,28.40672,0,0,2.345816,2.318725,232107.7,2.907309e+007
27.704,0.9243749,256.6981,28.83209,0,0,2.383282,2.355325,235583.3,2.951924e+007
28.198,0.9396874,260.4842,29.25734,0,0,2.422761,2.393878,239058,2.996618e+007
28.59,0.9540624,264.2476,29.68004,0,0,2.459824,2.430057,242511.8,3.041012e+007
29.078,0.9693749,268.024,30.10421,0,0,2.499304,2.468582,245977.6,3.08566e+007
29.498,0.9842186,271.7985,30.52815,0,0,2.537575,2.505913,249441.6,3.130283e+007
29.996,0.9998436,275.5894,30.95394,0,0,2.57786,2.545193,252920.7,3.175189e+007
30.422,1.015,279.3678,31.37833,0,0,2.616937,2.583281,256388.3,3.219948e+007
30.922,1.030937,283.131,31.80101,0,0,2.658028,2.623316,259842,3.264629e+007
31.388,1.046562,286.8993,32.22426,0,0,2.698313,2.662551,263300.3,3.309377e+007
31.866,1.0625,290.6827,32.6492,0,0,2.739404,2.702554,266772.4,3.35436e+007
32.352,1.078437,294.4461,33.07191,0,0,2.780495,2.742541,270226.3,3.399147e+007
32.782,1.094219,298.2334,33.49729,0,0,2.821183,2.782121,273702.1,3.444231e+007
33.334,1.110937,302.0079,33.92124,0,0,2.864289,2.824035,277166.1,3.489284e+007
33.772,1.126719,305.7908,34.34613,0,0,2.904977,2.863582,280637.8,3.534388e+007
34.316,1.143906,309.5591,34.76939,0,0,2.949291,2.906636,284096.2,3.579484e+007
34.808,1.160469,313.3291,35.19283,0,0,2.991993,2.948106,287556.1,3.62458e+007
35.294,1.177187,317.1271,35.61942,0,0,3.035099,2.989951,291041.7,3.67005e+007
35.842,1.194687,320.9074,36.04402,0,0,3.080218,3.033732,294511,3.715426e+007
36.298,1.211094,324.691,36.46899,0,0,3.122518,3.074759,297983.4,3.760774e+007
36.904,1.229687,328.4682,36.89324,0,0,3.170457,3.121236,301449.9,3.806292e+007
37.406,1.246875,332.2518,37.31822,0,0,3.214772,3.164179,304922.3,3.851791e+007
37.872,1.264062,336.0335,37.74297,0,0,3.259085,3.207103,308392.9,3.897304e+007
38.496,1.282969,339.8092,38.16705,0,0,3.307831,3.254299,311858.1,3.942955e+007
39.022,1.301093,343.5916,38.59189,0,0,3.354561,3.299524,315329.4,3.988648e+007
39.574,1.319687,347.3509,39.01413,0,0,3.402501,3.345897,318779.4,4.034159e+007
40.172,1.339062,351.1119,39.43655,0,0,3.452455,3.394195,322231,4.079809e+007
40.75,1.358437,354.8767,39.85942,0,0,3.502409,3.44247,325686.2,4.125546e+007
41.288,1.377344,358.6506,40.2833,0,0,3.551154,3.489555,329149.7,4.171382e+007
41.966,1.398594,362.4189,40.70655,0,0,3.605942,3.54245,332607.9,4.21744e+007
42.554,1.418594,366.1816,41.12918,0,0,3.657508,3.592208,336061.2,4.263348e+007
43.142,1.438906,369.9426,41.55161,0,0,3.709878,3.642719,339512.8,4.309312e+007
43.794,1.460625,373.7057,41.97427,0,0,3.765875,3.696697,342966.4,4.355497e+007
44.498,1.483281,377.475,42.39764,0,0,3.824289,3.752975,346425.7,4.401905e+007
45.178,1.505937,381.2419,42.82073,0,0,3.882703,3.809222,349882.7,4.448333e+007
45.864,1.528906,385.0033,43.24321,0,0,3.941922,3.866212,353334.7,4.494783e+007
46.534,1.5525,388.7724,43.66655,0,0,4.002753,3.924719,356793.8,4.541441e+007
47.292,1.577344,392.538,44.0895,0,0,4.066807,3.986288,360249.6,4.588254e+007
48.102,1.603906,396.299,44.51193,0,0,4.135292,4.052075,363701.3,4.635263e+007
48.906,1.630937,400.0675,44.9352,0,0,4.204986,4.118979,367159.8,4.682472e+007
49.728,1.658437,403.8287,45.35766,0,0,4.275888,4.186997,370611.6,4.72971e+007
50.646,1.688594,407.5831,45.77935,0,0,4.353639,4.261532,374057.2,4.777242e+007
51.512,1.71875,411.3453,46.20192,0,0,4.431389,4.336011,377510,4.824931e+007
52.514,1.751719,415.1124,46.62504,0,0,4.516391,4.417373,380967.2,4.873081e+007
53.656,1.78875,418.8718,47.04728,0,0,4.611868,4.508682,384417.3,4.921704e+007
54.816,1.827656,422.6379,47.4703,0,0,4.712178,4.604524,387873.7,4.970718e+007
56.162,1.872031,426.398,47.89262,0,0,4.826589,4.713726,391324.5,5.020421e+007
57.632,1.922344,430.1529,48.31437,0,0,4.956307,4.837396,394770.5,5.070898e+007
60.286,2.009843,433.6421,48.70628,0,0,5.181905,5.052109,397972.7,5.123019e+007
63.286,2.109531,434.1865,48.76742,0,0,5.438926,5.29617,398472.3,5.141984e+007
63.852,2.129531,429.3775,48.22728,0,0,5.490491,5.345063,394058.9,5.08752e+007
63.858,2.133906,394.2983,44.28722,0,0,5.501771,5.355755,361865.1,4.67238e+007
63.864,2.13875,328.5,36.89682,0,0,5.51426,5.367592,301479.1,3.89314e+007
63.87,2.141718,250.5585,28.1425,0,0,5.521914,5.374846,229948.7,2.96965e+007
"Specimen",2
"Width:",5.842000,"mm"
"Thickness:",1.524000,"mm"
"Length:",38.7858,"mm"
"Diameter:",1.000000,"mm"
"Inner diameter:",0.500000,"mm"
"Outer diameter:",1.000000,"mm"
"Wall thickness:",0.500000,"mm"
"Area:",8.903208,"mm*mm"
"Linear density:",1.000000,"den"
"Sled weight:",9.806650,"N"
"Loading span:",0.000000,"mm"
"Support span:",1.000000,"mm"
"Span ratio:","2"
"Fixture type:","3-point"
"Comment:",""
"Included"
"Time sec","Extension mm","Load N","Stress MPa","Cycle Count ","Total Cycle Count ","Strain [Exten.] %","True strain %","Tenacity gf/tex","True stress Pa"
0,0.0003125,-0.2313377,-0.02598363,0,0,0.0008057071,0.0008057039,-212.3089,-25983.84
0.958,0.03140625,9.852917,1.10667,0,0,0.08097357,0.0809408,9042.461,1107567
1.88,0.06312499,19.92853,2.238354,0,0,0.1627528,0.1626205,18289.3,2241997
2.832,0.09484374,30.02542,3.372427,0,0,0.2445321,0.2442336,27555.67,3380674
3.784,0.1267187,40.1044,4.504489,0,0,0.3267142,0.3261817,36805.6,4519206
4.762,0.1590625,50.1854,5.636777,0,0,0.4101049,0.4092663,46057.38,5659894
5.73,0.1914062,60.26444,6.768846,0,0,0.4934956,0.4922819,55307.37,6802250
6.698,0.2235937,70.35867,7.90262,0,0,0.5764835,0.5748282,64571.29,7948177
7.684,0.2559375,80.43983,9.034926,0,0,0.6598741,0.6577065,73823.22,9094545
8.664,0.28875,90.51742,10.16683,0,0,0.7444734,0.7417159,83071.88,1.024252e+007
9.65,0.3217187,100.605,11.29986,0,0,0.8294755,0.8260542,92329.71,1.139359e+007
10.594,0.3540624,110.684,12.43192,0,0,0.9128662,0.9087247,101579.6,1.254541e+007
11.57,0.3867187,120.7647,13.56418,0,0,0.9970626,0.9921247,110831.1,1.369942e+007
12.598,0.4199999,130.8371,14.6955,0,0,1.08287,1.077049,120075.1,1.485464e+007
13.61,0.4534374,140.8759,15.82305,0,0,1.169081,1.1623,129288.1,1.600804e+007
14.612,0.486875,150.9678,16.95656,0,0,1.255292,1.247478,138549.8,1.716941e+007
15.59,0.5207811,161.0767,18.09199,0,0,1.342711,1.333776,147827.3,1.833491e+007
16.608,0.5543749,171.1443,19.22277,0,0,1.429324,1.419206,157066.8,1.949752e+007
17.632,0.5881249,181.209,20.35323,0,0,1.516341,1.504959,166303.6,2.066185e+007
18.688,0.6226561,191.2879,21.48528,0,0,1.605371,1.592622,175553.4,2.183019e+007
19.752,0.6578124,201.4041,22.62152,0,0,1.696013,1.681792,184837.5,2.300518e+007
20.752,0.6928124,211.4741,23.75257,0,0,1.786253,1.770487,194079.2,2.417686e+007
21.794,0.7278124,221.5681,24.88632,0,0,1.876492,1.859103,203343,2.535331e+007
22.906,0.7639062,231.628,26.01624,0,0,1.969551,1.950406,212575.4,2.652865e+007
24.006,0.8003124,241.6846,27.14579,0,0,2.063416,2.042416,221804.8,2.770592e+007
25.084,0.8373436,251.7542,28.2768,0,0,2.158892,2.135918,231046,2.888726e+007
26.266,0.8754687,261.8223,29.40764,0,0,2.257189,2.232091,240286,3.007143e+007
27.464,0.9154686,271.892,30.53866,0,0,2.360319,2.332894,249527.5,3.125947e+007
28.694,0.9567186,281.979,31.67162,0,0,2.466672,2.436741,258784.7,3.245286e+007
30.016,1.000156,292.0382,32.80146,0,0,2.578665,2.545979,268016.5,3.36473e+007
31.294,1.043281,302.1032,33.93195,0,0,2.689853,2.654312,277253.6,3.484467e+007
32.53,1.084219,312.1758,35.0633,0,0,2.795401,2.757043,286497.7,3.604346e+007
33.72,1.124843,322.2539,36.19526,0,0,2.900143,2.858884,295746.8,3.724497e+007
35.016,1.166875,332.3053,37.32422,0,0,3.00851,2.964142,304971.4,3.844712e+007
36.234,1.209062,342.3663,38.45427,0,0,3.117281,3.06968,314204.8,3.965299e+007
37.584,1.252656,352.4483,39.58666,0,0,3.229677,3.178619,323457.5,4.086518e+007
38.884,1.297031,362.5055,40.71627,0,0,3.344087,3.289389,332687.4,4.207786e+007
40.31,1.344219,372.5498,41.84444,0,0,3.465749,3.407045,341905.6,4.329467e+007
41.81,1.39375,382.6135,42.97479,0,0,3.593454,3.530396,351141.4,4.451907e+007
43.356,1.445,392.6519,44.10229,0,0,3.72559,3.657867,360354.2,4.574536e+007
44.928,1.497969,402.6968,45.23053,0,0,3.862157,3.789442,369572.8,4.69774e+007
46.66,1.555781,412.7583,46.36063,0,0,4.011213,3.932852,378806.7,4.822025e+007
48.594,1.619218,422.8002,47.48852,0,0,4.174771,4.08998,388022.6,4.947106e+007
50.602,1.6875,432.8533,48.61768,0,0,4.350819,4.258829,397248.8,5.073294e+007
52.998,1.766875,442.8908,49.74508,0,0,4.555468,4.454754,406460.6,5.20112e+007
55.876,1.863594,452.9229,50.87187,0,0,4.804835,4.692972,415667.5,5.331618e+007
61.064,2.035937,462.7138,51.97158,0,0,5.249181,5.116051,424653.1,5.469967e+007
67.938,2.265,457.7588,51.41504,0,0,5.839765,5.675611,420105.7,5.441756e+007
70.864,2.362187,447.7287,50.28846,0,0,6.09034,5.912081,410900.6,5.33512e+007
72.776,2.426562,437.6924,49.1612,0,0,6.256316,6.068406,401689.8,5.223688e+007
74.01,2.467031,427.6009,48.02773,0,0,6.360655,6.166554,392428.4,5.108261e+007
74.902,2.496718,417.5245,46.89596,0,0,6.437197,6.238493,383180.8,4.991474e+007
75.584,2.52,407.3896,45.75762,0,0,6.497222,6.294872,373879.6,4.87306e+007
76.094,2.536093,397.1815,44.61106,0,0,6.538716,6.333826,364511.2,4.752805e+007
76.524,2.550937,386.9323,43.45987,0,0,6.576987,6.369742,355105,4.631822e+007
76.856,2.561875,376.7454,42.31569,0,0,6.605187,6.396198,345756,4.511072e+007
77.132,2.572343,366.3729,41.15066,0,0,6.632178,6.421514,336236.7,4.387984e+007
77.35,2.578437,355.8756,39.97161,0,0,6.64789,6.436247,326602.9,4.262888e+007
77.546,2.584687,345.5022,38.80648,0,0,6.664004,6.451356,317082.8,4.139255e+007
77.738,2.59125,334.8372,37.6086,0,0,6.680923,6.467217,307295,4.01212e+007
77.93,2.598593,324.5448,36.45258,0,0,6.699857,6.484963,297849.3,3.889484e+007
78.136,2.605312,314.0813,35.27732,0,0,6.71718,6.501197,288246.4,3.764696e+007
78.372,2.612812,303.7544,34.1174,0,0,6.736517,6.519315,278768.9,3.641573e+007
78.676,2.623125,293.5071,32.96644,0,0,6.763105,6.544223,269364.5,3.519599e+007
79.104,2.637187,283.3244,31.82273,0,0,6.799362,6.578177,260019.5,3.398648e+007
79.822,2.661093,273.2306,30.68901,0,0,6.860999,6.635873,250755.9,3.279458e+007
81.964,2.7325,263.1982,29.56217,0,0,7.045103,6.808008,241548.7,3.164486e+007
89.964,2.999531,265.2962,29.79782,0,0,7.73358,7.449114,243474.1,3.210226e+007
97.738,3.258593,258.4494,29.0288,0,0,8.401511,8.067185,237190.6,3.146766e+007
105.398,3.513749,250.2241,28.10493,0,0,9.059371,8.672223,229641.8,3.065106e+007
113.398,3.779999,246.9512,27.73733,0,0,9.745833,9.29969,226638.1,3.044056e+007
121.398,4.047343,245.2784,27.54944,0,0,10.43512,9.925797,225103,3.042426e+007
129.398,4.313593,246.107,27.64251,0,0,11.12158,10.54547,225863.4,3.071679e+007
137.398,4.579687,247.1135,27.75556,0,0,11.80764,11.16097,226787.1,3.103283e+007
145.398,4.847656,248.3111,27.89007,0,0,12.49853,11.777,227886.2,3.137592e+007
153.398,5.113124,248.8763,27.95355,0,0,13.18298,12.38356,228404.8,3.163866e+007
161.398,5.380624,249.6229,28.03741,0,0,13.87266,12.99107,229090,3.192694e+007
169.398,5.647187,249.9507,28.07423,0,0,14.55993,13.59279,229390.9,3.216182e+007
177.398,5.91328,250.9981,28.19187,0,0,15.24599,14.18987,230352.1,3.249e+007
185.398,6.180936,251.0543,28.19818,0,0,15.93608,14.78688,230403.7,3.269187e+007
193.398,6.446249,250.8961,28.18041,0,0,16.62013,15.37517,230258.5,3.286403e+007
201.398,6.714062,251.0543,28.19818,0,0,17.31062,15.96551,230403.7,3.307946e+007
209.398,6.980468,251.264,28.22174,0,0,17.99748,16.54931,230596.2,3.330094e+007
[...]
9.954,0.3323437,105.4514,11.84421,0,0,0.8568696,0.8532193,96777.49,1.19457e+007
10.73,0.3575,113.0207,12.69438,0,0,0.921729,0.917507,103724.1,1.281139e+007
11.488,0.3828125,120.5741,13.54277,0,0,0.9869913,0.9821523,110656.2,1.367643e+007
12.264,0.4085937,128.1104,14.38924,0,0,1.053462,1.047952,117572.6,1.454083e+007
13.034,0.4346874,135.6893,15.2405,0,0,1.120739,1.114505,124528.1,1.541131e+007
13.834,0.4612499,143.2575,16.09055,0,0,1.189224,1.182208,131473.8,1.628191e+007
14.646,0.4881249,150.8145,16.93935,0,0,1.258515,1.250661,138409.2,1.715253e+007
15.442,0.5153124,158.3792,17.789,0,0,1.328611,1.319862,145351.6,1.802535e+007
16.286,0.5431249,165.9438,18.63865,0,0,1.400319,1.390605,152294,1.889965e+007
17.11,0.5706249,173.4944,19.48672,0,0,1.471221,1.460504,159223.5,1.977342e+007
17.948,0.5989061,181.0303,20.33315,0,0,1.544138,1.532337,166139.5,2.064712e+007
18.794,0.6271874,188.5907,21.18233,0,0,1.617054,1.604119,173078.1,2.152486e+007
19.69,0.6565624,196.1493,22.0313,0,0,1.692791,1.678623,180014.9,2.240425e+007
20.63,0.6874999,203.6994,22.87933,0,0,1.772556,1.757029,186944,2.328487e+007
21.574,0.7192186,211.2598,23.7285,0,0,1.854335,1.837352,193882.5,2.416851e+007
22.46,0.7487499,218.7956,24.57492,0,0,1.930474,1.912077,200798.5,2.504933e+007
23.372,0.7789062,226.333,25.42151,0,0,2.008225,1.988326,207715.9,2.593203e+007
24.292,0.8095311,233.8874,26.27001,0,0,2.087184,2.065701,214648.9,2.681832e+007
25.186,0.8396874,241.4401,27.11832,0,0,2.164935,2.141833,221580.3,2.770542e+007
26.122,0.8710937,248.9852,27.96578,0,0,2.245909,2.22106,228504.8,2.859387e+007
27.068,0.9029686,256.5256,28.81272,0,0,2.328091,2.301404,235425,2.94835e+007
28.086,0.9368749,264.0617,29.65916,0,0,2.41551,2.386798,242341.2,3.037558e+007
29.174,0.9728124,271.5911,30.50485,0,0,2.508166,2.477228,249251.2,3.126997e+007
30.23,1.007812,279.1217,31.35069,0,0,2.598405,2.56522,256162.5,3.216531e+007
31.194,1.039844,286.6753,32.1991,0,0,2.68099,2.645681,263094.8,3.306236e+007
32.138,1.071719,294.2314,33.04779,0,0,2.763172,2.725686,270029.3,3.396096e+007
33.092,1.103437,301.7878,33.89652,0,0,2.844952,2.805234,276964.1,3.486086e+007
34.004,1.135156,309.3516,34.74608,0,0,2.926731,2.88472,283905.8,3.576301e+007
34.998,1.167187,316.8892,35.59269,0,0,3.009316,2.964925,290823.3,3.666379e+007
36.014,1.200312,324.4071,36.43711,0,0,3.094721,3.0478,297722.9,3.756473e+007
37.034,1.234375,331.9631,37.28579,0,0,3.182543,3.13295,304657.3,3.847242e+007
38.084,1.269375,339.4924,38.13147,0,0,3.272782,3.220367,311567.3,3.937943e+007
39.082,1.303906,347.0273,38.97779,0,0,3.361813,3.30654,318482.5,4.028815e+007
40.218,1.340781,354.5922,39.82747,0,0,3.456886,3.398478,325425.1,4.120426e+007
41.328,1.377656,362.1353,40.6747,0,0,3.55196,3.490333,332347.7,4.211945e+007
42.406,1.414531,369.6716,41.52117,0,0,3.647033,3.582103,339264.2,4.303546e+007
43.63,1.454375,377.1982,42.36654,0,0,3.749761,3.681167,346171.6,4.395519e+007
44.882,1.49625,384.7347,43.21304,0,0,3.857726,3.785176,353088.2,4.488008e+007
46.202,1.540156,392.2782,44.06032,0,0,3.970928,3.894113,360011.2,4.580993e+007
47.542,1.586094,399.8013,44.90531,0,0,4.089366,4.007964,366915.5,4.674165e+007
49.2,1.641094,407.3365,45.75166,0,0,4.231171,4.144104,373830.9,4.768749e+007
51.032,1.702031,414.8613,46.59684,0,0,4.388284,4.294726,380736.7,4.864164e+007
53.432,1.781562,422.3832,47.44168,0,0,4.593336,4.490965,387639.9,4.962084e+007
57.938,1.932187,429.0572,48.1913,0,0,4.981687,4.861574,393764.9,5.059204e+007
61.736,2.057812,422.1826,47.41916,0,0,5.305582,5.169624,387455.8,4.993502e+007
63.29,2.109375,414.6569,46.57388,0,0,5.438523,5.295788,380549.2,4.910681e+007
64.316,2.14375,407.1086,45.72606,0,0,5.527151,5.379808,373621.7,4.825341e+007
65.094,2.17,399.5397,44.87593,0,0,5.59483,5.443922,366675.4,4.738666e+007
65.67,2.189375,391.9724,44.02597,0,0,5.644783,5.491218,359730.6,4.651115e+007
66.096,2.203281,384.3753,43.17267,0,0,5.680638,5.525151,352758.3,4.562515e+007
66.424,2.215625,376.6834,42.30872,0,0,5.712463,5.555261,345699.1,4.472559e+007
66.642,2.221875,368.9964,41.44532,0,0,5.728578,5.570504,338644.4,4.381955e+007
66.818,2.227187,361.2339,40.57346,0,0,5.742275,5.583458,331520.5,4.29033e+007
66.962,2.231875,353.3835,39.6917,0,0,5.75436,5.594886,324315.8,4.197571e+007
67.084,2.236562,345.3595,38.79045,0,0,5.766446,5.606313,316951.8,4.102728e+007
67.188,2.240312,337.3536,37.89124,0,0,5.776114,5.615454,309604.4,4.007988e+007
67.276,2.243593,329.4915,37.00818,0,0,5.784574,5.623452,302389,3.914894e+007
67.36,2.24625,321.4278,36.10247,0,0,5.791423,5.629926,294988.6,3.819332e+007
67.444,2.24875,312.9058,35.14529,0,0,5.797868,5.636018,287167.7,3.718297e+007
67.528,2.25125,304.5758,34.20967,0,0,5.804314,5.64211,279522.8,3.619531e+007
67.612,2.254062,296.7787,33.33391,0,0,5.811565,5.648964,272367.1,3.527113e+007
67.708,2.257343,288.7973,32.43744,0,0,5.820025,5.656959,265042.1,3.432531e+007
67.82,2.261406,280.8417,31.54388,0,0,5.830499,5.666857,257741,3.338305e+007
67.96,2.267031,272.9499,30.65747,0,0,5.845002,5.680559,250498.3,3.24494e+007
68.13,2.272031,265.1764,29.78436,0,0,5.857893,5.692738,243364.2,3.15291e+007
68.36,2.278593,257.4258,28.91383,0,0,5.874814,5.70872,236251.2,3.061246e+007
68.742,2.291718,249.7845,28.05556,0,0,5.908653,5.740677,229238.4,2.971327e+007
69.538,2.317812,242.221,27.20604,0,0,5.975929,5.80418,222297,2.883185e+007
73.902,2.464062,243.666,27.36833,0,0,6.353001,6.159357,223623.1,2.910704e+007
79.104,2.637656,250.5199,28.13816,0,0,6.800571,6.579309,229913.3,3.005171e+007
85.104,2.838281,246.4253,27.67826,0,0,7.317835,7.062466,226155.5,2.970371e+007
90.488,3.016562,239.2169,26.86862,0,0,7.777491,7.489864,219540,2.895832e+007
96.47,3.215781,233.0364,26.17443,0,0,8.291129,7.965305,213867.9,2.834459e+007
101.898,3.396718,226.3006,25.41787,0,0,8.757634,8.395168,207686.2,2.764388e+007
105.802,3.526718,218.7877,24.57403,0,0,9.092808,8.702878,200791.2,2.68085e+007
107.95,3.599062,211.268,23.72943,0,0,9.279329,8.873707,193890.1,2.593136e+007
109.14,3.638593,203.7191,22.88154,0,0,9.381251,8.966931,186962.1,2.502811e+007
110.26,3.675468,196.1737,22.03404,0,0,9.476324,9.053812,180037.3,2.412206e+007
111.506,3.717812,188.6326,21.18704,0,0,9.585498,9.153486,173116.6,2.321792e+007
112.99,3.76625,181.0931,20.34021,0,0,9.710382,9.267382,166197.3,2.231532e+007
115.37,3.845625,173.576,19.4959,0,0,9.915032,9.453745,159298.5,2.142892e+007
118.682,3.955937,166.0561,18.65127,0,0,10.19945,9.712168,152397.1,2.055359e+007
121.776,4.060312,158.5393,17.80699,0,0,10.46855,9.95607,145498.6,1.967112e+007
124.324,4.145468,151.0242,16.96289,0,0,10.68811,10.15462,138601.6,1.877591e+007
126.388,4.212968,143.5014,16.11794,0,0,10.86214,10.31173,131697.6,1.786869e+007
128.072,4.269374,135.9674,15.27173,0,0,11.00757,10.44282,124783.3,1.695277e+007
129.812,4.327187,128.4377,14.426,0,0,11.15663,10.57701,117873,1.603546e+007
131.938,4.398906,120.9042,13.57984,0,0,11.34154,10.74322,110959.1,1.512001e+007
134.33,4.478124,113.3862,12.73543,0,0,11.54578,10.92649,104059.6,1.420584e+007
136.642,4.554843,105.8538,11.8894,0,0,11.74358,11.10366,97146.76,1.328564e+007
138.874,4.630155,98.32696,11.04399,0,0,11.93776,11.27728,90239.03,1.23624e+007
140.846,4.694843,90.79674,10.1982,0,0,12.10454,11.42616,83328.22,1.143265e+007
142.912,4.764374,83.27775,9.353679,0,0,12.28381,11.58595,76427.7,1.050267e+007
144.99,4.833281,75.74454,8.507556,0,0,12.46147,11.74405,69514.14,9567722
147.38,4.913593,68.22867,7.66338,0,0,12.66854,11.928,62616.49,8634218
149.804,4.994218,60.70277,6.818079,0,0,12.87641,12.11233,55709.64,7696002
151.998,5.066406,53.16891,5.971882,0,0,13.06253,12.27708,48795.48,6751961
154.462,5.149062,45.64547,5.126857,0,0,13.27564,12.46539,41890.88,5807480
157.008,5.233593,38.1348,4.283265,0,0,13.49358,12.65761,34998.01,4861231
159.636,5.321093,30.61681,3.438851,0,0,13.71918,12.85619,28098.41,3910633
162.28,5.409218,23.10273,2.594877,0,0,13.94639,13.05579,21202.4,2956768
164.778,5.492499,15.57445,1.749307,0,0,14.16111,13.24405,14293.36,1997029
167.206,5.573593,8.04662,0.9037888,0,0,14.37019,13.42703,7384.742,1033665
169.358,5.645624,0.5315815,0.05970674,0,0,14.55591,13.58928,487.8561,68397.6
170.968,5.698749,-7.000019,-0.7862356,0,0,14.69288,13.70877,-6424.23,-901756.2
171.986,5.73328,-14.53619,-1.632692,0,0,14.78191,13.78637,-13340.51,-1874035
172.544,5.751562,-22.13754,-2.486467,0,0,14.82904,13.82742,-20316.6,-2855187
172.684,5.756874,-32.24322,-3.621529,0,0,14.84274,13.83935,-29591.04,-4159062
172.7,5.757811,-41.92849,-4.709369,0,0,14.84515,13.84145,-38479.65,-5408482
173.728,5.792031,-49.08968,-5.513707,0,0,14.93338,13.91825,-45051.79,-6337089
174.486,5.816405,-49.08957,-5.513695,0,0,14.99622,13.97291,-45051.69,-6340541